File: analysis_output/cleaned_mixes.csv
dataset,mix_id,mix_code,scm_primary_type,cement_kg_m3,binder_content_kg_m3,scm_replacement_pct,w_c_ratio,w_b_ratio,water_kg_m3,compressive_strength_28d_mpa,total_coarse_agg_kg_m3,total_fine_agg_kg_m3,total_agg_kg_m3,fine_to_coarse_ratio,binder_to_aggregate_ratio
DS1,6.0,DS1-1,GGBS,540.00,540.00,0.0,0.30,0.3,162.00,79.99,1040.00,676.00,1716.00,0.65,0.314685
DS2,7391.0,DS2-15,None,380,380,0.0,0.285,,108.300,96.84,0,0,0,,
DS3,4331.0,DS3-1,Fly Ash,280,280,0.0,,,180,22.45,832,1045,1877,1.25601,0.149174
DS3,4340.0,DS3-10,Fly Ash,330,330,0.0,,,191,26.36,768,1005,1773,1.30859,0.186125
DS1,15.0,DS1-10,GGBS,475.00,475.00,0.0,0.48,0.48,228.00,39.29,932.00,594.00,1526.00,0.637339,0.311271
DS1,24.0,DS1-19,GGBS,380.00,475.00,20.0,0.60,0.48,228.00,,932.00,594.00,1526.00,0.637339,0.311271
DS2,7405.0,DS2-29,None,650,650,0.0,0.3,,195.0,67.5,0,0,0,,
DS2,7384.0,DS2-8,None,450,450,0.0,0.28,,126.00,60,0,0,0,,
DS2,7413.0,DS2-37,None,452,452,0.0,0.34,,153.68,48.4,0,0,0,,
DS2,7432.0,DS2-56,None,400,400,0.0,0.35,,140.00,56.21,0,0,0,,
DS3,4346.0,DS3-16,Fly Ash,216,540,60.0,,,172.8,27.8,600,900,1500,1.5,0.36
DS3,4355.0,DS3-25,Fly Ash,390,390,0.0,,,195,,1200,710,1910,0.591667,0.204188
DS1,26.0,DS1-21,GGBS,427.50,475.00,10.0,0.53,0.48,228.00,,932.00,594.00,1526.00,0.637339,0.311271
DS1,35.0,DS1-30,GGBS,475.00,475.00,0.0,0.48,0.48,228.00,,932.00,594.00,1526.00,0.637339,0.311271
DS2,7445.0,DS2-69,None,460,460,0.0,0.36,,165.60,60.8,0,0,0,,
DS2,7422.0,DS2-46,None,400,400,0.0,0.35,,140.00,49,0,0,0,,
DS2,7452.0,DS2-76,None,500,500,0.0,0.36,,180.00,48.9,0,0,0,,
DS2,7468.0,DS2-92,None,500,500,0.0,0.36,,180.00,61.8,0,0,0,,
DS2,7476.0,DS2-100,None,474,474,0.0,0.38,,180.12,49.4,0,0,0,,
DS3,4370.0,DS3-40,GGBS,156,368,57.6087,,,225,,1096,710,1806,0.64781,0.203765
DS4,8115.0,DS4-5,Fly Ash,327.5,518.0,36.7761,,0.40,206.2,47.4,783.1,783.1,1566.2,1.0,0.330737
DS1,47.0,DS1-42,GGBS,427.50,475.00,10.0,0.53,0.48,228.00,,932.00,594.00,1526.00,0.637339,0.311271
DS1,56.0,DS1-51,GGBS,332.50,475.00,30.0,0.69,0.48,228.00,,932.00,594.00,1526.00,0.637339,0.311271
DS2,7456.0,DS2-80,None,500,500,0.0,0.36,,180.00,46.1,0,0,0,,
DS2,7485.0,DS2-109,None,460,460,0.0,0.4,,184.0,33.7,0,0,0,,
DS2,7503.0,DS2-127,None,400,400,0.0,0.4,,160.0,53.82,0,0,0,,
DS2,7509.0,DS2-133,None,350,350,0.0,0.4,,140.0,33.2,0,0,0,,
DS3,4382.0,DS3-52,GGBS,156,368,57.6087,,,213,25.52,1148,710,1858,0.618467,0.198062
DS3,4391.0,DS3-61,Fly Ash,390,390,0.0,,,207,,1174,710,1884,0.60477,0.207006
DS2,7519.0,DS2-143,None,380,380,0.0,0.41,,155.80,42.3,0,0,0,,
DS1,70.0,DS1-65,GGBS,266.00,380.00,30.0,0.86,0.60,228.00,,932.00,670.00,1602.00,0.718884,0.237203
DS1,79.0,DS1-74,GGBS,425.00,531.30,20.0075,0.36,0.28,151.40,,936.00,803.70,1739.70,0.858654,0.305397
DS2,7499.0,DS2-123,None,488,488,0.0,0.4,,195.2,57.1,0,0,0,,
DS2,7528.0,DS2-152,None,537,537,0.0,0.41,,220.17,43.2,0,0,0,,
DS3,4398.0,DS3-68,GGBS,156,368,57.6087,,,213,,1148,710,1858,0.618467,0.198062
DS2,7553.0,DS2-177,None,537,537,0.0,0.41,,220.17,40,0,0,0,,
DS3,4406.0,DS3-76,Fly Ash,436,436,0.0,,,244,21.64,1143.00,616,1759.00,0.538933,0.247868
DS4,8119.0,DS4-9,Fly Ash,300,500,40.0,,0.38,190,62.3,812.5,812.5,1625.0,1.0,0.307692
DS1,83.0,DS1-78,GGBS,425.00,531.30,20.0075,0.36,0.29,153.50,,852.10,887.10,1739.20,1.04107,0.305485
DS1,92.0,DS1-87,GGBS,362.60,551.60,34.264,0.45,0.30,164.90,,944.70,755.80,1700.50,0.800042,0.324375
DS2,7533.0,DS2-157,None,537,537,0.0,0.41,,220.17,48.9,0,0,0,,
DS2,7542.0,DS2-166,None,537,537,0.0,0.41,,220.17,56.9,0,0,0,,
DS2,7582.0,DS2-206,None,380,380,0.0,0.42,,159.60,65.1,0,0,0,,
DS2,7591.0,DS2-215,None,420,420,0.0,0.43,,180.60,31.1,0,0,0,,
DS3,4417.0,DS3-87,Fly Ash,436,436,0.0,,,244,,1143,616,1759,0.538933,0.247868
DS2,7596.0,DS2-220,None,401,401,0.0,0.43,,172.43,42.5,0,0,0,,
DS1,99.0,DS1-94,GGBS,374.00,563.20,33.59375,0.45,0.30,170.10,,926.10,756.70,1682.80,0.817082,0.33468
DS1,108.0,DS1-103,GGBS,531.30,531.30,0.0,0.27,0.27,141.80,,852.10,893.70,1745.80,1.04882,0.30433
DS2,7571.0,DS2-195,None,350,350,0.0,0.42,,147.00,51,0,0,0,,
DS2,7580.0,DS2-204,None,350,350,0.0,0.42,,147.00,66.5,0,0,0,,
DS2,7610.0,DS2-234,None,432,432,0.0,0.43,,185.76,35.1,0,0,0,,
DS3,4430.0,DS3-100,Fly Ash,385.2,385.2,0.0,,,165,46,815.1,917.3,1732.4,1.12538,0.22235
DS3,4439.0,DS3-109,Fly Ash,498.3,498.3,0.0,,,199.32,29.79,952.8,661,1613.8,0.693745,0.308774
DS3,4443.0,DS3-113,Fly Ash,498.3,498.3,0.0,,,199.32,34.64,943.9,661,1604.9,0.700286,0.310487
DS3,4452.0,DS3-122,Fly Ash,380,380,0.0,,,179,,816,710,1526,0.870098,0.249017
DS1,117.0,DS1-112,GGBS,362.60,551.60,34.264,0.45,0.30,164.90,,944.70,755.80,1700.50,0.800042,0.324375
DS1,126.0,DS1-121,GGBS,375.00,468.80,20.0085,0.34,0.27,126.60,56.70,852.10,992.60,1844.70,1.16489,0.254133
DS2,7631.0,DS2-255,None,341,341,0.0,0.44,,150.04,37.4,0,0,0,,
DS2,7617.0,DS2-241,None,385,385,0.0,0.44,,169.40,54,0,0,0,,
DS2,7642.0,DS2-266,None,385,385,0.0,0.44,,169.40,61.2,0,0,0,,
DS4,8124.0,DS4-14,Fly Ash,345.9,518.0,33.2239,,0.40,206.2,32.8,786.1,786.1,1572.2,1.0,0.329475
DS2,7664.0,DS2-288,None,335,335,0.0,0.45,,150.75,44.8,0,0,0,,
DS3,4464.0,DS3-134,Fly Ash,380,380,0.0,,,201,41,1003,710,1713,0.707876,0.221833
DS2,7669.0,DS2-293,None,400,400,0.0,0.45,,180.00,38.3,0,0,0,,
DS1,140.0,DS1-135,GGBS,362.60,551.60,34.264,0.45,0.30,164.90,71.30,944.70,755.80,1700.50,0.800042,0.324375
DS1,149.0,DS1-144,GGBS,375.00,468.80,20.0085,0.34,0.27,126.60,,852.10,992.60,1844.70,1.16489,0.254133
DS2,7647.0,DS2-271,None,400,400,0.0,0.45,,180.00,37,0,0,0,,
DS2,7676.0,DS2-300,None,350,350,0.0,0.45,,157.50,64.7,0,0,0,,
DS2,7695.0,DS2-319,None,400,400,0.0,0.45,,180.00,52.4,0,0,0,,
DS3,4475.0,DS3-145,Silica Fume,506,550,8.0,,,137,82.4,816,710,1526,0.870098,0.360419
DS3,4477.0,DS3-147,Fly Ash,398,398,0.0,,,195.02,37.92,1193,614,1807,0.514669,0.220255
DS3,4486.0,DS3-156,Fly Ash,398,398,0.0,,,195.02,39.75,1193,614,1807,0.514669,0.220255
DS2,7706.0,DS2-330,None,300,300,0.0,0.45,,135.00,33.5,0,0,0,,
DS1,159.0,DS1-154,GGBS,323.70,606.50,46.6282,0.57,0.30,183.80,,942.70,659.90,1602.60,0.700011,0.378448
DS1,168.0,DS1-163,GGBS,374.00,563.20,33.59375,0.45,0.30,170.10,,926.10,756.70,1682.80,0.817082,0.33468
DS2,7687.0,DS2-311,None,433,433,0.0,0.45,,194.85,49.6,0,0,0,,
DS2,7714.0,DS2-338,None,450,450,0.0,0.45,,202.50,40.2,0,0,0,,
DS2,7734.0,DS2-358,None,400,400,0.0,0.47,,188.00,38.1,0,0,0,,
DS4,8136.0,DS4-26,Fly Ash,325,500,35.0,,0.38,190,43.8,816.7,816.7,1633.4,1.0,0.30611
DS3,4494.0,DS3-164,Fly Ash,404,404,0.0,,,208.4,38.48,1228,614,1842,0.5,0.219327
DS3,4503.0,DS3-173,Fly Ash,266,266,0.0,,,209,,943,750,1693,0.795334,0.157118
DS1,172.0,DS1-167,GGBS,375.00,468.80,20.0085,0.34,0.27,126.60,,852.10,992.60,1844.70,1.16489,0.254133
DS1,181.0,DS1-176,GGBS,362.60,551.60,34.264,0.45,0.30,164.90,,944.70,755.80,1700.50,0.800042,0.324375
DS2,7719.0,DS2-343,None,424,424,0.0,0.46,,195.04,43.7,0,0,0,,
DS2,7728.0,DS2-352,None,350,350,0.0,0.46,,161.00,66.8,0,0,0,,
DS2,7758.0,DS2-382,None,350,350,0.0,0.48,,168.00,41.9,0,0,0,,
DS2,7775.0,DS2-399,None,380,380,0.0,0.5,,190.0,26.7,0,0,0,,
DS2,7782.0,DS2-406,None,350,350,0.0,0.5,,175.0,36.7,0,0,0,,
DS3,4515.0,DS3-185,Fly Ash,380,380,0.0,,,209,24.41,943,750,1693,0.795334,0.224454
DS2,7788.0,DS2-412,None,343,343,0.0,0.5,,171.5,24.7,0,0,0,,
DS1,195.0,DS1-190,Fly Ash,233.81,328.39,28.8011,0.85,0.60,197.89,,947.04,852.16,1799.20,0.899814,0.18252
DS1,204.0,DS1-199,Fly Ash,194.68,295.20,34.0515,0.85,0.56,165.62,,1006.40,905.90,1912.30,0.900139,0.154369
DS2,7766.0,DS2-390,None,410,410,0.0,0.49,,200.90,45.3,0,0,0,,
DS2,7795.0,DS2-419,None,372,372,0.0,0.5,,186.0,27.2,0,0,0,,
DS3,4520.0,DS3-190,Fly Ash,380,380,0.0,,,209,,943,750,1693,0.795334,0.224454
DS5,13087.0,DS5-657,GGBS,246,320,23.125,,,149,58.512,0,0,0,,
DS3,4530.0,DS3-200,Fly Ash,187.5,375.0,50.0,,,142.5,,865,880,1745,1.01734,0.2149
DS3,4539.0,DS3-209,GGBS,187.5,375.0,50.0,,,142.5,,865.0,880,1745.0,1.01734,0.2149
DS1,208.0,DS1-203,Fly Ash,190.68,316.08,39.6735,0.85,0.51,162.14,,1090.00,804.01,1894.01,0.737624,0.166884
DS1,217.0,DS1-212,Fly Ash,229.97,348.28,33.9698,0.85,0.56,195.47,24.48,1029.40,758.59,1787.99,0.736924,0.194789
DS2,7799.0,DS2-423,None,372,372,0.0,0.5,,186.0,25.4,0,0,0,,
DS2,7826.0,DS2-450,None,413,413,0.0,0.5,,206.5,51,0,0,0,,
DS2,7847.0,DS2-471,None,360,360,0.0,0.5,,180.0,37,0,0,0,,
DS2,7854.0,DS2-478,None,300,300,0.0,0.5,,150.0,34.6,0,0,0,,
DS2,7859.0,DS2-483,None,450,450,0.0,0.5,,225.0,38.2,0,0,0,,
DS3,4548.0,DS3-218,Fly Ash,187.5,375.00,50.0,,,142.5,,865,880,1745,1.01734,0.2149
DS2,7864.0,DS2-488,None,394,394,0.0,0.5,,197.0,33.8,0,0,0,,
DS1,232.0,DS1-227,Fly Ash,167.95,373.86,55.0768,0.72,0.33,121.75,24.24,1058.70,780.11,1838.81,0.736857,0.203316
DS2,7865.0,DS2-489,None,315,315,0.0,0.5,,157.5,23,0,0,0,,
DS2,7841.0,DS2-465,None,350,350,0.0,0.5,,175.0,33,0,0,0,,
DS2,7871.0,DS2-495,None,325,325,0.0,0.51,,165.75,46.5,0,0,0,,
DS2,7890.0,DS2-514,None,325,325,0.0,0.52,,169.00,56.5,0,0,0,,
DS2,7895.0,DS2-519,None,350,350,0.0,0.53,,185.50,63,0,0,0,,
DS3,4560.0,DS3-230,Fly Ash,187.5,375.00,50.0,,,142.5,,865.0,880,1745.0,1.01734,0.2149
DS2,7897.0,DS2-521,None,380,380,0.0,0.53,,201.40,44,0,0,0,,
DS1,244.0,DS1-239,GGBS,213.76,336.34,36.4453,0.85,0.54,181.74,,1066.00,785.52,1851.52,0.736886,0.181656
DS1,253.0,DS1-248,Fly Ash,238.05,332.16,28.3327,0.78,0.56,186.66,,949.91,847.01,1796.92,0.891674,0.18485
DS2,7876.0,DS2-500,None,350,350,0.0,0.51,,178.50,42.9,0,0,0,,
DS2,7905.0,DS2-529,None,300,300,0.0,0.54,,162.00,45.4,0,0,0,,
DS2,7925.0,DS2-549,None,400,400,0.0,0.55,,220.00,48.6,0,0,0,,
DS4,8149.0,DS4-39,Fly Ash,338.9,481.9,29.6742,,0.36,174.5,59,847.2,847.2,1694.4,1.0,0.284407
DS3,4570.0,DS3-240,Fly Ash,187.5,375.0,50.0,,,142.5,44.41,865,880,1745,1.01734,0.2149
DS3,4579.0,DS3-249,GGBS,187.5,375.0,50.0,,,142.5,32.22,865.0,880,1745.0,1.01734,0.2149
DS2,7944.0,DS2-568,None,394,394,0.0,0.55,,216.70,34.02,0,0,0,,
DS1,267.0,DS1-262,Fly Ash,212.57,312.96,32.0776,0.75,0.51,159.35,37.40,1003.80,903.79,1907.59,0.900369,0.16406
DS1,276.0,DS1-271,Fly Ash,231.75,353.37,34.4172,0.75,0.49,173.96,,1056.40,778.45,1834.85,0.736889,0.192588
DS2,7921.0,DS2-545,None,300,300,0.0,0.55,,165.00,42,0,0,0,,
DS2,7951.0,DS2-575,None,436,436,0.0,0.55,,239.80,24.6,0,0,0,,
DS3,4582.0,DS3-252,Fly Ash,187.5,375.0,50.0,,,142.5,24.41,865.00,880,1745.00,1.01734,0.2149
DS2,7974.0,DS2-598,None,410,410,0.0,0.55,,225.50,45.3,0,0,0,,
DS3,4589.0,DS3-259,Fly Ash,300,500,40.0,,,177,44,812,734,1546,0.903941,0.323415
DS2,7978.0,DS2-602,None,350,350,0.0,0.56,,196.00,35.6,0,0,0,,
DS1,280.0,DS1-275,Fly Ash,251.37,369.64,31.996,0.75,0.51,188.45,,1028.40,757.73,1786.13,0.736805,0.20695
DS1,289.0,DS1-284,Fly Ash,251.37,369.64,31.996,0.75,0.51,188.45,,1028.40,757.73,1786.13,0.736805,0.20695
DS2,7956.0,DS2-580,None,436,436,0.0,0.55,,239.80,23.14,0,0,0,,
DS2,7985.0,DS2-609,None,353,353,0.0,0.57,,201.21,44.7,0,0,0,,
DS2,8005.0,DS2-629,None,278,278,0.0,0.6,,166.8,31.8,0,0,0,,
DS4,8156.0,DS4-46,Fly Ash,382.5,518.0,26.1583,,0.36,187.5,48.2,817.4,817.4,1634.8,1.0,0.316858
DS3,4602.0,DS3-272,GGBS,228,455,49.8901,,,182,,1100,770,1870,0.7,0.243316
DS3,4611.0,DS3-281,Fly Ash,305,610,50.0,,,207.4,,613.8,798.6,1412.4,1.30108,0.431889
DS1,300.0,DS1-295,Fly Ash,168.88,335.35,49.6407,0.94,0.47,158.33,,1080.80,796.15,1876.95,0.73663,0.178668
DS1,309.0,DS1-304,Fly Ash,290.35,386.53,24.8829,0.58,0.43,168.08,,961.18,865.00,1826.18,0.899935,0.21166
DS2,7998.0,DS2-622,None,339,339,0.0,0.58,,196.62,21.6,0,0,0,,
DS2,8027.0,DS2-651,None,390,390,0.0,0.6,,234.0,32.3,0,0,0,,
DS4,8163.0,DS4-53,Fly Ash,364.2,518.1,29.7047,,0.40,206.2,50.5,789.1,789.1,1578.2,1.0,0.328285
DS3,4619.0,DS3-289,Fly Ash,434,620,30.0,,,210.8,50.15,640.73,798.6,1439.33,1.24639,0.430756
DS3,4628.0,DS3-298,Fly Ash,200,455,56.044,,,150,,1140,830,1970,0.72807,0.230964
DS1,315.0,DS1-310,Fly Ash,295.71,391.35,24.4385,0.58,0.44,171.54,,955.14,859.20,1814.34,0.899554,0.215698
DS1,324.0,DS1-319,Fly Ash,251.81,351.75,28.4122,0.58,0.42,146.14,,1006.00,899.76,1905.76,0.894394,0.184572
DS2,8043.0,DS2-667,None,280,280,0.0,0.64,,179.20,34,0,0,0,,
DS2,8021.0,DS2-645,None,336,336,0.0,0.6,,201.6,40.9,0,0,0,,
DS2,8050.0,DS2-674,None,275,275,0.0,0.65,,178.75,31.9,0,0,0,,
DS3,4635.0,DS3-305,Fly Ash,250,470,46.8085,,,150,,1140,830,1970,0.72807,0.238579
DS2,8056.0,DS2-680,None,300,300,0.0,0.65,,195.00,14.6,0,0,0,,
DS3,4639.0,DS3-309,Fly Ash,200,455,56.044,,,150,,1073,830,1903,0.773532,0.239096
DS3,4648.0,DS3-318,Fly Ash,200,455,56.044,,,150,31.85,1140,830,1970,0.72807,0.230964
DS2,8069.0,DS2-693,None,323,323,0.0,0.65,,209.95,43.8,0,0,0,,
DS1,337.0,DS1-332,Fly Ash,246.83,371.91,33.6318,0.58,0.39,143.30,52.50,1086.80,800.89,1887.69,0.736925,0.197019
DS1,346.0,DS1-341,Fly Ash,297.16,414.70,28.3434,0.59,0.42,174.80,,1022.80,753.45,1776.25,0.736654,0.233469
DS2,8084.0,DS2-708,None,294,294,0.0,0.67,,196.98,18.8,0,0,0,,
DS2,8091.0,DS2-715,None,300,300,0.0,0.68,,204.00,34.5,0,0,0,,
DS3,4655.0,DS3-325,Fly Ash,250,470,46.8085,,,150,,1140,830,1970,0.72807,0.238579
DS3,4661.0,DS3-331,Fly Ash,280,280,0.0,,,150,,1140,830,1970,0.72807,0.142132
DS1,349.0,DS1-344,Fly Ash,297.16,414.70,28.3434,0.59,0.42,174.80,,1022.80,753.45,1776.25,0.736654,0.233469
DS1,358.0,DS1-353,Fly Ash,213.50,387.74,44.9373,0.72,0.40,154.61,,1052.30,775.48,1827.78,0.736938,0.212137
DS1,367.0,DS1-362,Fly Ash,218.23,396.65,44.9817,0.64,0.35,140.75,55.51,1075.70,792.67,1868.37,0.736888,0.212297
DS1,376.0,DS1-371,Fly Ash,218.85,342.98,36.1916,0.72,0.46,158.49,,1078.70,794.91,1873.61,0.736915,0.183058
DS2,8101.0,DS2-725,None,300,300,0.0,0.7,,210.0,29.9,0,0,0,,
DS4,8167.0,DS4-57,Fly Ash,375,500,25.0,,0.38,190,49.5,819.2,819.2,1638.4,1.0,0.305176
DS1,393.0,DS1-388,GGBS,520.00,520.00,0.0,0.34,0.34,175.00,51.02,870.00,805.00,1675.00,0.925287,0.310448
DS1,402.0,DS1-397,GGBS,516.00,516.00,0.0,0.31,0.31,162.00,41.37,801.00,802.00,1603.00,1.00125,0.321896
DS1,411.0,DS1-406,GGBS,500.00,500.00,0.0,0.30,0.30,151.00,69.84,1033.00,655.00,1688.00,0.634076,0.296209
DS1,420.0,DS1-415,Fly Ash,190.34,315.52,39.6742,0.88,0.53,166.61,,1079.00,798.90,1877.90,0.740408,0.168017
DS1,429.0,DS1-424,Fly Ash,172.38,358.36,51.8975,0.91,0.44,156.76,,1006.30,856.40,1862.70,0.851038,0.192387
DS1,438.0,DS1-433,Fly Ash,165.00,308.59,46.531,0.99,0.53,163.81,26.20,1005.60,900.90,1906.50,0.895883,0.161862
DS1,446.0,DS1-441,Fly Ash,190.34,315.52,39.6742,0.88,0.53,166.61,24.85,1079.00,798.90,1877.90,0.740408,0.168017
DS1,455.0,DS1-450,Fly Ash,172.38,358.36,51.8975,0.91,0.44,156.76,,1006.30,856.40,1862.70,0.851038,0.192387
DS1,464.0,DS1-459,Fly Ash,165.00,308.59,46.531,0.99,0.53,163.81,,1005.60,900.90,1906.50,0.895883,0.161862
DS1,473.0,DS1-468,Fly Ash,250.00,345.69,27.6809,0.77,0.55,191.84,,948.90,857.20,1806.10,0.903362,0.191401
DS1,482.0,DS1-477,Fly Ash,446.00,549.00,18.7614,0.36,0.30,162.00,,967.00,712.00,1679.00,0.736298,0.32698
DS1,491.0,DS1-486,Fly Ash,387.00,501.00,22.7545,0.41,0.31,157.00,50.24,938.00,845.00,1783.00,0.900853,0.280987
DS1,500.0,DS1-495,Fly Ash,387.00,501.00,22.7545,0.41,0.31,157.00,,938.00,845.00,1783.00,0.900853,0.280987
DS1,509.0,DS1-504,Fly Ash,491.00,640.00,23.28125,0.43,0.33,210.00,,882.00,699.00,1581.00,0.792517,0.404807
DS1,518.0,DS1-513,Fly Ash,424.00,578.00,26.6436,0.40,0.29,168.00,,822.00,750.00,1572.00,0.912409,0.367684
DS1,527.0,DS1-522,Fly Ash,284.00,440.00,35.4545,0.63,0.41,179.00,,842.00,801.00,1643.00,0.951306,0.267803
DS1,536.0,DS1-531,Fly Ash,359.00,519.00,30.8285,0.43,0.30,154.00,,942.00,801.00,1743.00,0.850318,0.297762
DS1,545.0,DS1-540,GGBS,480.00,480.00,0.0,0.40,0.40,192.00,,936.20,712.20,1648.40,0.760735,0.291191
DS1,554.0,DS1-549,GGBS,289.00,289.00,0.0,0.66,0.66,192.00,25.57,913.20,895.30,1808.50,0.980399,0.159801
DS1,563.0,DS1-558,GGBS,255.50,425.80,39.9953,0.73,0.44,185.70,,1026.60,724.30,1750.90,0.705533,0.243189
DS1,572.0,DS1-567,GGBS,255.50,425.80,39.9953,0.73,0.44,185.70,32.05,1026.60,724.30,1750.90,0.705533,0.243189
DS1,581.0,DS1-576,GGBS,238.10,238.10,0.0,0.78,0.78,185.70,17.58,1118.80,789.30,1908.10,0.705488,0.124784
DS1,590.0,DS1-585,GGBS,228.00,570.10,60.007,0.81,0.33,185.70,,955.80,674.30,1630.10,0.705482,0.349733
DS1,599.0,DS1-594,GGBS,252.50,252.50,0.0,0.74,0.74,185.70,,1111.60,784.30,1895.90,0.70556,0.133182
DS1,608.0,DS1-603,GGBS,339.00,339.00,0.0,0.58,0.58,197.00,,968.00,781.00,1749.00,0.806818,0.193825
DS1,616.0,DS1-611,GGBS,236.00,236.00,0.0,0.82,0.82,193.00,,968.00,885.00,1853.00,0.914256,0.127361
DS1,625.0,DS1-620,GGBS,254.00,254.00,0.0,0.78,0.78,198.00,,968.00,863.00,1831.00,0.891529,0.138722
DS1,634.0,DS1-629,GGBS,200.00,200.00,0.0,0.90,0.90,180.00,12.25,1125.00,845.00,1970.00,0.751111,0.101523
DS1,643.0,DS1-638,GGBS,375.00,375.00,0.0,0.50,0.50,186.00,,1038.00,758.00,1796.00,0.73025,0.208797
DS1,652.0,DS1-647,GGBS,250.20,417.00,40.0,0.81,0.49,203.50,,977.60,694.10,1671.70,0.710004,0.249447
DS1,661.0,DS1-656,GGBS,166.80,417.00,60.0,1.22,0.49,203.50,33.95,975.60,692.60,1668.20,0.709922,0.24997
DS1,670.0,DS1-665,GGBS,250.20,417.00,40.0,0.81,0.49,203.50,,977.60,694.10,1671.70,0.710004,0.249447
DS1,679.0,DS1-674,GGBS,212.00,353.30,39.9943,0.96,0.58,203.50,,973.40,750.00,1723.40,0.770495,0.205002
DS1,688.0,DS1-683,GGBS,183.90,306.50,40.0,1.11,0.66,203.50,24.05,959.20,800.00,1759.20,0.834028,0.174227
DS1,697.0,DS1-692,GGBS,212.00,353.30,39.9943,0.96,0.58,203.50,,973.40,750.00,1723.40,0.770495,0.205002
DS1,706.0,DS1-701,GGBS,133.00,333.00,60.0601,1.44,0.58,192.00,,927.40,839.20,1766.60,0.904895,0.188498
DS1,715.0,DS1-710,GGBS,173.00,289.00,40.1384,1.11,0.66,192.00,,946.80,856.80,1803.60,0.904943,0.160235
DS1,724.0,DS1-719,GGBS,122.60,306.50,60.0,1.66,0.66,203.50,,958.20,800.10,1758.30,0.835003,0.174316
DS1,732.0,DS1-727,GGBS,331.00,331.00,0.0,0.58,0.58,192.00,,1025.00,821.00,1846.00,0.800976,0.179307
DS1,741.0,DS1-736,GGBS,349.00,349.00,0.0,0.55,0.55,192.00,,1056.00,809.00,1865.00,0.766098,0.187131
DS1,750.0,DS1-745,GGBS,281.00,281.00,0.0,0.66,0.66,186.00,,1104.00,774.00,1878.00,0.701087,0.149627
DS1,759.0,DS1-754,GGBS,540.00,540.00,0.0,0.32,0.32,173.00,67.31,1125.00,613.00,1738.00,0.544889,0.310702
DS1,768.0,DS1-763,GGBS,350.00,350.00,0.0,0.58,0.58,203.00,,974.00,775.00,1749.00,0.795688,0.200114
DS1,777.0,DS1-772,GGBS,331.00,331.00,0.0,0.58,0.58,192.00,,978.00,825.00,1803.00,0.843558,0.183583
DS1,786.0,DS1-781,GGBS,238.00,238.00,0.0,0.78,0.78,185.00,17.54,1118.00,789.00,1907.00,0.705725,0.124803
DS1,795.0,DS1-790,GGBS,349.00,349.00,0.0,0.55,0.55,192.00,32.72,1047.00,806.00,1853.00,0.769819,0.188343
DS1,804.0,DS1-799,GGBS,500.00,500.00,0.0,0.40,0.40,200.00,,1125.00,613.00,1738.00,0.544889,0.287687
DS1,813.0,DS1-808,GGBS,382.00,382.00,0.0,0.48,0.48,185.00,37.42,1047.00,739.00,1786.00,0.705826,0.213886
DS1,822.0,DS1-817,GGBS,525.00,525.00,0.0,0.36,0.36,189.00,,1125.00,613.00,1738.00,0.544889,0.302071
DS1,831.0,DS1-826,GGBS,397.00,397.00,0.0,0.47,0.47,185.00,39.09,1040.00,734.00,1774.00,0.705769,0.223788
DS1,840.0,DS1-835,GGBS,310.00,564.00,45.0355,0.54,0.30,168.00,33.69,914.00,651.00,1565.00,0.712254,0.360383
DS1,849.0,DS1-844,GGBS,142.00,439.00,67.6538,1.23,0.40,174.00,44.61,883.00,785.00,1668.00,0.889015,0.263189
DS1,858.0,DS1-853,Fly Ash,298.00,405.00,26.4198,0.62,0.46,186.00,42.64,879.00,815.00,1694.00,0.92719,0.239079
DS1,867.0,DS1-862,Fly Ash,321.00,449.00,28.5078,0.57,0.41,182.00,37.26,870.00,780.00,1650.00,0.896552,0.272121
DS1,876.0,DS1-871,GGBS,149.00,397.00,62.4685,1.30,0.49,193.00,23.69,892.00,780.00,1672.00,0.874439,0.23744
DS1,885.0,DS1-880,GGBS,313.00,458.00,31.6594,0.57,0.39,178.00,44.39,867.00,824.00,1691.00,0.950404,0.270846
DS1,894.0,DS1-889,GGBS,153.00,298.00,48.6577,1.16,0.60,178.00,19.01,1000.00,822.00,1822.00,0.822,0.163557
DS1,902.0,DS1-897,GGBS,313.00,474.00,33.9662,0.57,0.38,178.00,52.44,917.00,759.00,1676.00,0.827699,0.282816
DS1,911.0,DS1-906,Fly Ash,135.00,301.00,55.1495,1.33,0.60,180.00,13.29,961.00,805.00,1766.00,0.837669,0.170442
DS1,920.0,DS1-915,GGBS,313.00,458.00,31.6594,0.57,0.39,178.00,41.05,1002.00,689.00,1691.00,0.687625,0.270846
DS1,929.0,DS1-924,GGBS,162.00,541.00,70.0555,1.33,0.40,216.00,39.84,822.00,638.00,1460.00,0.776156,0.370548
DS1,938.0,DS1-933,Fly Ash,154.00,513.00,69.9805,1.48,0.44,228.00,24.34,845.00,612.00,1457.00,0.72426,0.352093
DS1,947.0,DS1-942,GGBS,133.10,343.30,61.2292,1.47,0.57,195.70,28.94,949.40,795.30,1744.70,0.837687,0.196767
DS1,956.0,DS1-951,Fly Ash,326.50,464.40,29.6942,0.61,0.43,199.00,38.63,801.10,792.50,1593.60,0.989265,0.291416
DS1,965.0,DS1-960,GGBS,312.90,473.40,33.9037,0.57,0.38,177.60,52.45,916.60,759.50,1676.10,0.828606,0.282441
DS1,974.0,DS1-969,Fly Ash,134.70,300.40,55.1598,1.34,0.60,180.20,13.29,961.00,804.90,1765.90,0.837565,0.170112
DS1,983.0,DS1-978,GGBS,313.30,458.30,31.6387,0.57,0.39,178.50,41.05,1001.90,688.70,1690.60,0.687394,0.271087
DS1,992.0,DS1-987,GGBS,272.80,459.70,40.657,0.77,0.46,209.70,37.17,904.00,679.70,1583.70,0.751881,0.29027
DS1,1001.0,DS1-996,GGBS,158.60,423.50,62.5502,1.10,0.41,175.10,27.68,953.30,719.70,1673.00,0.754956,0.253138
DS1,1010.0,DS1-1005,GGBS,279.80,509.10,45.0403,0.62,0.34,172.40,52.83,825.10,804.90,1630.00,0.975518,0.312331
DS1,1018.0,DS1-1013,GGBS,325.60,492.00,33.8211,0.53,0.35,174.00,61.24,881.60,790.00,1671.60,0.896098,0.294329
DS1,1027.0,DS1-1022,Fly Ash,298.20,405.20,26.4067,0.70,0.52,209.70,31.88,879.60,744.20,1623.80,0.846066,0.249538
DS3,4670.0,DS3-340,Fly Ash,200,455,56.044,,,150,,1005,830,1835,0.825871,0.247956
DS4,8173.0,DS4-63,Fly Ash,287.7,482.1,40.3236,,0.40,191.8,21,821,821,1642,1.0,0.293605
DS3,4677.0,DS3-347,Fly Ash,430,615,30.0813,,,277,32.31,602,846,1448,1.40532,0.424724
DS5,13094.0,DS5-664,GGBS,231,300,23.0,,,161,52.716,0,0,0,,
DS4,8187.0,DS4-77,Fly Ash,304.8,482.0,36.7635,,0.36,174.5,53.7,841.5,841.5,1683.0,1.0,0.286393
DS3,4688.0,DS3-358,Silica Fume,430,487,11.7043,,,277,,560,846,1406,1.51071,0.346373
DS3,4697.0,DS3-367,Fly Ash,300,540,44.4444,,,200,,1327,272,1599,0.204974,0.337711
DS3,4706.0,DS3-376,Fly Ash,300,540,44.4444,,,200,39.73,970,527,1497,0.543299,0.360721
DS3,4715.0,DS3-385,Fly Ash,427,427,0.0,,,180,40.72,582,957,1539,1.64433,0.277453
DS5,13096.0,DS5-666,GGBS,160,320,50.0,,,152,54.372,0,0,0,,
DS3,4723.0,DS3-393,Fly Ash,427,427,0.0,,,180,,582,957,1539,1.64433,0.277453
DS3,4732.0,DS3-402,Fly Ash,350,350,0.0,,,175,30,1170.0,874,2044.0,0.747009,0.171233
DS3,4740.0,DS3-410,Silica Fume,315,350,10.0,,,175,35.45,1170.0,874,2044.0,0.747009,0.171233
DS5,13099.0,DS5-669,GGBS,246,320,23.125,,,156,52.44,0,0,0,,
DS3,4750.0,DS3-420,GGBS,140,350,60.0,,,175,25.82,1170.0,874,2044.0,0.747009,0.171233
DS3,4759.0,DS3-429,Fly Ash,380,380,0.0,,,190,64.8,946,744,1690,0.786469,0.224852
DS5,13111.0,DS5-681,GGBS,246,320,23.125,,,156,55.936,0,0,0,,
DS3,4769.0,DS3-439,Fly Ash,380,380,0.0,,,190,50.3,683,836,1519,1.22401,0.250165
DS5,13114.0,DS5-684,None,300,300,0.0,,,180,33.672,0,0,0,,
DS5,13119.0,DS5-689,Fly Ash,297,330,10.0,,,198,40.983,0,0,0,,
DS3,4788.0,DS3-458,Fly Ash,315,450,30.0,,,216,37.18,720,870,1590,1.20833,0.283019
DS3,4797.0,DS3-467,Fly Ash,380,380,0.0,,,110.2,106.41,1057.0,711.8,1768.8,0.673415,0.214835
DS3,4806.0,DS3-476,Fly Ash,380,380,0.0,,,110.2,,975.1,711.8,1686.9,0.729976,0.225265
DS5,13127.0,DS5-697,Fly Ash,378,420,10.0,,,168,60.989,0,0,0,,
DS3,4816.0,DS3-486,Fly Ash,380,380,0.0,,,110.2,,975.1,711.8,1686.9,0.729976,0.225265
DS5,13130.0,DS5-700,None,480,480,0.0,,,168,68.264,0,0,0,,
DS3,4826.0,DS3-496,Silica Fume,332.5,350.0,5.0,,,175,36.29,1240,538,1778,0.433871,0.19685
DS3,4835.0,DS3-505,Fly Ash,300,300,0.0,,,205,23.47,1027,697,1724,0.678676,0.174014
DS3,4844.0,DS3-514,Fly Ash,485,485,0.0,,,165,77.69,1089,685,1774,0.629017,0.273393
DS5,13142.0,DS5-712,None,550,550,0.0,,,165,83.056,0,0,0,,
DS3,4855.0,DS3-525,Fly Ash,350,350,0.0,,,180,,1041,706,1747,0.678194,0.200343
DS3,4864.0,DS3-534,Fly Ash,358,358,0.0,,,178.3,36.5,1109.4,730.4,1839.8,0.658374,0.194586
DS5,13145.0,DS5-715,Fly Ash,266,380,30.0,,,160,55.1,0,0,0,,
DS3,4874.0,DS3-544,Fly Ash,300,300,0.0,,,195,,901.4,804.2,1705.6,0.892168,0.175891
DS3,4883.0,DS3-553,Fly Ash,300,300,0.0,,,195,41.13,855.2,807.9,1663.1,0.944691,0.180386
DS3,4892.0,DS3-562,Fly Ash,350,350,0.0,,,114.28,65.87,1029,858,1887,0.833819,0.18548
DS3,4901.0,DS3-571,Fly Ash,350,350,0.0,,,117.88,63.94,1016,858,1874,0.844488,0.186766
DS3,4910.0,DS3-580,Fly Ash,300,300,0.0,,,160,,818.2,951.3,1769.5,1.16267,0.169539
DS3,4919.0,DS3-589,Fly Ash,536,536,0.0,,,241,,1070,619,1689,0.578505,0.317348
DS3,4928.0,DS3-598,Fly Ash,536,536,0.0,,,241,47.02,1011,619,1630,0.612265,0.328834
DS3,4937.0,DS3-607,Fly Ash,536,536,0.0,,,241,,1010,619,1629,0.612871,0.329036
DS3,4941.0,DS3-611,Fly Ash,536,536,0.0,,,241,,1010,619,1629,0.612871,0.329036
DS3,4950.0,DS3-620,Fly Ash,536,536,0.0,,,241,,1011,619,1630,0.612265,0.328834
DS3,4959.0,DS3-629,Fly Ash,400,530,24.5283,,,170,,759,822,1581,1.083,0.335231
DS3,4968.0,DS3-638,Fly Ash,400,530,24.5283,,,170,,759,822,1581,1.083,0.335231
DS3,4977.0,DS3-647,Fly Ash,400,530,24.5283,,,170,,759,822,1581,1.083,0.335231
DS3,4986.0,DS3-656,Fly Ash,400,530,24.5283,,,170,60.84,759,822,1581,1.083,0.335231
DS3,4995.0,DS3-665,Fly Ash,585,585,0.0,,,204.88,,1355.94,453.66,1809.60,0.334572,0.323276
DS5,13157.0,DS5-727,None,350,350,0.0,,,150.5,56.948,0,0,0,,
DS3,5010.0,DS3-680,Fly Ash,585,585,0.0,,,204.88,,1358.45,453.66,1812.11,0.333954,0.322828
DS3,5019.0,DS3-689,Fly Ash,293,586,50.0,,,204.88,,1355.94,453.66,1809.60,0.334572,0.323828
DS3,5028.0,DS3-698,Fly Ash,585,585,0.0,,,204.88,28.63,1350.89,453.66,1804.55,0.335823,0.324181
DS3,5037.0,DS3-707,Fly Ash,234,585,60.0,,,204.88,22.72,1360.98,453.66,1814.64,0.333333,0.322378
DS3,5046.0,DS3-716,Fly Ash,351,585,40.0,,,204.88,,1358.45,453.66,1812.11,0.333954,0.322828
DS3,5055.0,DS3-725,Fly Ash,234,585,60.0,,,204.88,,1355.94,453.66,1809.60,0.334572,0.323276
DS3,5064.0,DS3-734,GGBS,125,250,50.0,,,155,,1035,778,1813,0.751691,0.137893
DS3,5073.0,DS3-743,GGBS,175,250,30.0,,,155,,880,834,1714,0.947727,0.145858
DS3,5078.0,DS3-748,GGBS,175,250,30.0,,,155,,927,818,1745,0.882416,0.143266
DS3,5087.0,DS3-757,GGBS,125,250,50.0,,,155,14.93,1035,778,1813,0.751691,0.137893
DS3,5096.0,DS3-766,GGBS,175,250,30.0,,,155,14.9,880,834,1714,0.947727,0.145858
DS3,5105.0,DS3-775,Fly Ash,350,350,0.0,,,189,49.59,1049.10,744.5,1793.60,0.709656,0.195138
DS3,5114.0,DS3-784,Fly Ash,350,350,0.0,,,140,65.42,1118.6,793.8,1912.4,0.709637,0.183016
DS3,5123.0,DS3-793,Fly Ash,537,537,0.0,,,220,48.87,920,693,1613,0.753261,0.33292
DS3,5132.0,DS3-802,Fly Ash,537,537,0.0,,,220,51.44,920,693,1613,0.753261,0.33292
DS3,5141.0,DS3-811,Fly Ash,537,537,0.0,,,220,41.93,920,693,1613,0.753261,0.33292
DS3,5146.0,DS3-816,Fly Ash,537,537,0.0,,,220,51.14,920,693,1613,0.753261,0.33292
DS3,5155.0,DS3-825,Fly Ash,537,537,0.0,,,220,36.62,920,693,1613,0.753261,0.33292
DS3,5164.0,DS3-834,Fly Ash,537,537,0.0,,,220,,920,693,1613,0.753261,0.33292
DS3,5173.0,DS3-843,Fly Ash,537,537,0.0,,,220,,920,693,1613,0.753261,0.33292
DS3,5182.0,DS3-852,Fly Ash,537,537,0.0,,,220,,920,693,1613,0.753261,0.33292
DS3,5191.0,DS3-861,Fly Ash,537,537,0.0,,,220,,920,693,1613,0.753261,0.33292
DS3,5200.0,DS3-870,Fly Ash,537,537,0.0,,,220,,920,693,1613,0.753261,0.33292
DS3,5209.0,DS3-879,Fly Ash,537,537,0.0,,,220,,920,693,1613,0.753261,0.33292
DS3,5215.0,DS3-885,Fly Ash,537,537,0.0,,,220,,920,693,1613,0.753261,0.33292
DS3,5224.0,DS3-894,Fly Ash,537,537,0.0,,,220,,920,693,1613,0.753261,0.33292
DS3,5233.0,DS3-903,Fly Ash,537,537,0.0,,,220,,920,693,1613,0.753261,0.33292
DS3,5242.0,DS3-912,Fly Ash,537,537,0.0,,,220,,920,693,1613,0.753261,0.33292
DS3,5251.0,DS3-921,Fly Ash,350,350,0.0,,,168,,1094.68,282.04,1376.72,0.257646,0.254227
DS3,5260.0,DS3-930,Fly Ash,413,413,0.0,,,206,54.17,1050,606,1656,0.577143,0.249396
DS3,5269.0,DS3-939,Fly Ash,430,430,0.0,,,146.2,28.4,907.3,653.6,1560.9,0.720379,0.275482
DS3,5278.0,DS3-948,Fly Ash,520,520,0.0,,,208,18.8,1066,577.2,1643.2,0.541463,0.316456
DS3,5282.0,DS3-952,Fly Ash,249,249,0.0,,,119.52,13.9,1065.72,804.27,1869.99,0.754673,0.133156
DS3,5291.0,DS3-961,Fly Ash,294,294,0.0,,,170.52,,905.52,767.34,1672.86,0.847403,0.175747
DS3,5300.0,DS3-970,Fly Ash,339,339,0.0,,,200.01,,1064.46,728.85,1793.31,0.684713,0.189036
DS3,5309.0,DS3-979,Fly Ash,339,339,0.0,,,94.92,,905.13,728.85,1633.98,0.805243,0.207469
DS3,5318.0,DS3-988,Fly Ash,294,294,0.0,,,173.46,,1067.22,767.34,1834.56,0.719008,0.160256
DS3,5327.0,DS3-997,Fly Ash,380,380,0.0,,,155.8,47.53,1051.1,818.5,1869.6,0.778708,0.203252
DS3,5336.0,DS3-1006,Fly Ash,380,380,0.0,,,193.8,44.02,1051.1,818.5,1869.6,0.778708,0.203252
DS3,5345.0,DS3-1015,Fly Ash,380,380,0.0,,,159.6,,1074.9,862.4,1937.3,0.802307,0.196149
DS5,13179.0,DS5-749,Fly Ash,239,360,33.6111,,,158.4,47.064,0,0,0,,
DS3,5358.0,DS3-1028,Fly Ash,380,380,0.0,,,159.6,,1051.1,818.5,1869.6,0.778708,0.203252
DS3,5367.0,DS3-1037,Fly Ash,380,380,0.0,,,197.6,,1051.1,818.5,1869.6,0.778708,0.203252
DS3,5376.0,DS3-1046,Fly Ash,340,340,0.0,,,159.8,,1258,556,1814,0.441971,0.187431
DS3,5385.0,DS3-1055,Fly Ash,330,396,16.6667,,,165,,1050,665,1715,0.633333,0.230904
DS3,5394.0,DS3-1064,Fly Ash,330,330,0.0,,,165,,1065,740,1805,0.694836,0.182825
DS3,5403.0,DS3-1073,Fly Ash,444.44,444.44,0.0,,,213.31,,870.58,915.35,1785.93,1.05143,0.248856
DS3,5412.0,DS3-1082,Fly Ash,355,355,0.0,,,180,28.75,1246,560,1806,0.449438,0.196567
DS6,23223.0,1,Fly Ash,307.5,410.0,25.0,0.55,,169.125,36.8,1017,0,1017,0.0,0.403147
DS5,13180.0,DS5-750,Fly Ash,239,360,33.6111,,,165.6,43.834,0,0,0,,
DS3,5415.0,DS3-1085,Silica Fume,261,290,10.0,,,180,31.93,1234,636,1870,0.515397,0.15508
DS3,5424.0,DS3-1094,Silica Fume,300,333,9.90991,,,180,34.52,1252,575,1827,0.459265,0.182266
DS3,5433.0,DS3-1103,Fly Ash,310,310,0.0,,,180,,1240,610,1850,0.491935,0.167568
DS3,5442.0,DS3-1112,Fly Ash,330,330,0.0,,,180,,1245,585,1830,0.46988,0.180328
DS3,5451.0,DS3-1121,Fly Ash,355,355,0.0,,,180,,1245,560,1805,0.449799,0.196676
DS3,5460.0,DS3-1130,Fly Ash,310,310,0.0,,,180,,1240,610,1850,0.491935,0.167568
DS3,5469.0,DS3-1139,Fly Ash,355,355,0.0,,,180,,1245,560,1805,0.449799,0.196676
DS3,5478.0,DS3-1148,Fly Ash,230,330,30.303,,,160,,1314,562,1876,0.427702,0.175906
DS6,23240.0,1,Fly Ash,410,410,0.0,0.55,,225.50,48.6,1048,0,1048,0.0,0.391221
DS6,23249.0,1,Fly Ash,359.775,553.500,35.0,0.41,,147.508,63,1044,0,1044,0.0,0.530172
DS6,23253.0,1,Fly Ash,410,410,0.0,0.5,,205.0,51.7,1075,0,1075,0.0,0.381395
DS3,5489.0,DS3-1159,Fly Ash,215,305,29.5082,,,160,,1311,589,1900,0.449275,0.160526
DS3,5498.0,DS3-1168,Fly Ash,300,430,30.2326,,,160,,1262,514,1776,0.40729,0.242117
DS3,5507.0,DS3-1177,Fly Ash,295,421,29.9287,,,160,,1267,517,1784,0.408051,0.235987
DS3,5516.0,DS3-1186,Fly Ash,260,370,29.7297,,,160,31.75,1285,550,1835,0.428016,0.201635
DS3,5525.0,DS3-1195,Fly Ash,215,305,29.5082,,,160,,1311,589,1900,0.449275,0.160526
DS3,5534.0,DS3-1204,Fly Ash,300,430,30.2326,,,160,,1262,514,1776,0.40729,0.242117
DS3,5543.0,DS3-1213,Fly Ash,295,421,29.9287,,,160,,1267,517,1784,0.408051,0.235987
DS6,23257.0,1,Fly Ash,384.375,512.500,25.0,0.4,,153.7500,55.8,998,0,998,0.0,0.513527
DS6,23266.0,1,Fly Ash,375,500,25.0,0.36,,135.00,63.4,1024,0,1024,0.0,0.488281
DS5,13193.0,DS5-763,Fly Ash,297.5,350.0,15.0,,,175,42.75,0,0,0,,
DS3,5555.0,DS3-1225,Fly Ash,147.5,295.0,50.0,,,192,,928,751,1679,0.809267,0.1757
DS3,5564.0,DS3-1234,Fly Ash,295,295,0.0,,,192,,1036,809,1845,0.780888,0.159892
DS3,5573.0,DS3-1243,Fly Ash,424,424,0.0,,,190.8,,936,733,1669,0.78312,0.254044
DS3,5582.0,DS3-1252,Fly Ash,424,424,0.0,,,190.8,,979,767,1746,0.783453,0.242841
DS3,5591.0,DS3-1261,Fly Ash,212,424,50.0,,,190.8,,893,697,1590,0.780515,0.266667
DS3,5600.0,DS3-1270,Fly Ash,192,295,34.9153,,,192,25,889,769,1658,0.865017,0.177925
DS6,23274.0,1,Fly Ash,375,500,25.0,0.32,,120.00,70.1,1056,0,1056,0.0,0.473485
DS6,23283.0,2,Fly Ash,260,400,35.0,0.46,,119.60,38.3,1.075,0,1.075,0.0,372.093
DS6,23288.0,2,Fly Ash,266.5,410.0,35.0,0.55,,146.575,40.7,1.048,0,1.048,0.0,391.221
DS3,5615.0,DS3-1285,Fly Ash,227.5,455.0,50.0,,,250.25,30.8,1015,800,1815,0.788177,0.250689
DS3,5624.0,DS3-1294,Fly Ash,340,424,19.8113,,,190.8,,980,770,1750,0.785714,0.242286
DS3,5633.0,DS3-1303,Fly Ash,295,295,0.0,,,191.75,,1039,814,1853,0.783446,0.159201
DS3,5642.0,DS3-1312,Fly Ash,350,350,0.0,,,192.5,,1015,800,1815,0.788177,0.192837
DS3,5651.0,DS3-1321,Fly Ash,147.5,295.0,50.0,,,191.75,,1039,814,1853,0.783446,0.159201
DS3,5660.0,DS3-1330,Fly Ash,390,390,0.0,,,195,,1078,678,1756,0.628942,0.222096
DS6,23294.0,3,None,410,410,0.0,0.55,,225.50,42.5,1030,0,1030,0.0,0.398058
DS5,13200.0,DS5-770,Fly Ash,236,295,20.0,,,147.5,32.125,0,0,0,,
DS3,5667.0,DS3-1337,GGBS,175.5,390.0,55.0,,,195,,1107,658,1765,0.594399,0.220963
DS3,5676.0,DS3-1346,Fly Ash,390,390,0.0,,,195,,1107,678,1785,0.612466,0.218487
DS3,5685.0,DS3-1355,Silica Fume,351,390,10.0,,,195,,1078,664,1742,0.615955,0.223881
DS3,5694.0,DS3-1364,Fly Ash,253.5,390.0,35.0,,,195,36.87,1066,640,1706,0.600375,0.228605
DS3,5703.0,DS3-1373,GGBS,175.5,390.0,55.0,,,195,,1107,658,1765,0.594399,0.220963
DS3,5712.0,DS3-1382,Fly Ash,275,275,0.0,,,178.75,31.92,943.84,918.49,1862.33,0.973142,0.147664
DS3,5721.0,DS3-1391,Fly Ash,335,335,0.0,,,151,42.68,1134,630,1764,0.555556,0.189909
DS6,23315.0,5,None,410,410,0.0,0.5,,205.0,51.7,1075,0,1075,0.0,0.381395
DS6,23320.0,5,Fly Ash,384.375,512.500,25.0,0.4,,153.7500,52.5,994,0,994,0.0,0.515594
DS3,5728.0,DS3-1398,Fly Ash,275,275,0.0,,,178.75,33.4,847.54,962.73,1810.27,1.13591,0.151911
DS3,5737.0,DS3-1407,Fly Ash,401,401,0.0,,,172.43,36.02,1119,574,1693,0.512958,0.236858
DS3,5746.0,DS3-1416,Fly Ash,401,401,0.0,,,172.43,,1261,574,1835,0.455194,0.218529
DS3,5755.0,DS3-1425,Fly Ash,370,370,0.0,,,155.4,27.97,990,175,1165,0.176768,0.317597
DS3,5764.0,DS3-1434,Fly Ash,340,340,0.0,,,153,38.81,1064,723,1787,0.679511,0.190263
DS3,5773.0,DS3-1443,Fly Ash,372,372,0.0,,,186,,1287.78,617.65,1905.43,0.479624,0.195232
DS6,23324.0,5,None,400,400,0.0,0.46,,184.00,56.8,1092,0,1092,0.0,0.3663
DS6,23333.0,5,None,400,400,0.0,0.41,,164.00,58.5,1107,0,1107,0.0,0.361337
DS6,23338.0,6,None,380,380,0.0,0.48,,182.40,46.8893,1006,0,1006,0.0,0.377734
DS3,5788.0,DS3-1458,Fly Ash,350,350,0.0,,,180,,1857,612,2469,0.329564,0.141758
DS3,5797.0,DS3-1467,Fly Ash,300,300,0.0,,,179,36.6,1902,611,2513,0.321241,0.119379
DS3,5806.0,DS3-1476,GGBS,117.3,390.9,69.9923,,,156.4,,1117.9,738,1855.9,0.660166,0.210626
DS3,5815.0,DS3-1485,GGBS,195.4,390.8,50.0,,,156.5,,1119.1,739.7,1858.8,0.660978,0.210243
DS3,5824.0,DS3-1494,Fly Ash,190.3,380.6,50.0,,,152.4,23.8,1090.3,720.7,1811.0,0.661011,0.21016
DS3,5833.0,DS3-1503,Fly Ash,390.4,390.4,0.0,,,156.3,,1118.2,739.1,1857.3,0.660973,0.210198
DS6,23344.0,7,Fly Ash,190.3,380.6,50.0,0.41,,78.023,23.803,1090.3,0,1090.3,0.0,0.349078
DS5,13212.0,DS5-782,Fly Ash,120,400,70.0,,,112,41.807,0,0,0,,
DS3,5844.0,DS3-1514,Fly Ash,380,380,0.0,,,190,48.87,946.21,744.45,1690.66,0.78677,0.224764
DS3,5853.0,DS3-1523,Fly Ash,262,262,0.0,,,174,15.4,1020,830,1850,0.813725,0.141622
DS3,5862.0,DS3-1532,Fly Ash,410,410,0.0,,,225,,1030,642,1672,0.623301,0.245215
DS3,5871.0,DS3-1541,Fly Ash,410,410,0.0,,,205,,1049,662,1711,0.631077,0.239626
DS3,5880.0,DS3-1550,Fly Ash,375,500,25.0,,,180,,1040,665,1705,0.639423,0.293255
DS3,5889.0,DS3-1559,Fly Ash,375,500,25.0,,,160,,1022,685,1707,0.670254,0.292912
DS6,23355.0,8,Fly Ash,304,380,20.0,0.48,,145.92,48.1176,1006,0,1006,0.0,0.377734
DS6,23364.0,9,None,351,351,0.0,0.5,,175.5,56.5269,1066,0,1066,0.0,0.329268
DS3,5897.0,DS3-1567,Fly Ash,384.38,512.51,25.0005,,,225,,987,582,1569,0.589666,0.326648
DS3,5906.0,DS3-1576,Fly Ash,384.38,512.51,25.0005,,,205,,994,618,1612,0.62173,0.317934
DS3,5915.0,DS3-1585,Fly Ash,375,500,25.0,,,180,,1009,665,1674,0.659068,0.298686
DS3,5924.0,DS3-1594,Fly Ash,410,410,0.0,,,225,,1048,642,1690,0.612595,0.242604
DS3,5933.0,DS3-1603,Fly Ash,410,410,0.0,,,205,,1075,662,1737,0.615814,0.236039
DS3,5942.0,DS3-1612,Fly Ash,400,400,0.0,,,180,,1092,708,1800,0.648352,0.222222
DS6,23367.0,9,GGBS,175.5,390.0,55.0,0.5,,87.75,45.2062,1066,0,1066,0.0,0.365854
DS6,23376.0,10,None,330,330,0.0,0.5,,165.0,37.5184,1077,0,1077,0.0,0.306407
DS6,23381.0,11,Fly Ash,311.11,444.44,29.9995,0.48,,149.3328,17.39,870.58,0,870.58,0.0,0.51051
DS3,5958.0,DS3-1628,Fly Ash,410,410,0.0,,,225,36.02,1030,642,1672,0.623301,0.245215
DS3,5967.0,DS3-1637,Fly Ash,410,410,0.0,,,205,36.78,1049,662,1711,0.631077,0.239626
DS3,5976.0,DS3-1646,Fly Ash,375,500,25.0,,,180,67.4,1040,665,1705,0.639423,0.293255
DS3,5985.0,DS3-1655,Fly Ash,375,500,25.0,,,160,71.06,1022,685,1707,0.670254,0.292912
DS3,5994.0,DS3-1664,Fly Ash,384.38,512.51,25.0005,,,225,,978,582,1560,0.595092,0.328532
DS3,6003.0,DS3-1673,Fly Ash,384.38,512.51,25.0005,,,205,,979,618,1597,0.631256,0.32092
DS6,23387.0,12,None,330,330,0.0,0.55,,181.50,21,1245,0,1245,0.0,0.26506
DS5,13225.0,DS5-795,Fly Ash,240,300,20.0,,,175,34.01,0,0,0,,
DS3,6014.0,DS3-1684,Fly Ash,400,400,0.0,,,160,,1124,729,1853,0.648577,0.215866
DS3,6023.0,DS3-1693,Fly Ash,247,380,35.0,,,182.4,,1005,780,1785,0.776119,0.212885
DS3,6032.0,DS3-1702,Fly Ash,304,380,20.0,,,182.4,,1005,785,1790,0.781095,0.212291
DS3,6041.0,DS3-1711,Fly Ash,260,400,35.0,,,180,,1092,668,1760,0.611722,0.227273
DS3,6050.0,DS3-1720,Fly Ash,266.5,410.0,35.0,,,225,,1017,598,1615,0.588004,0.25387
DS3,6059.0,DS3-1729,Fly Ash,307.5,410.0,25.0,,,225,,1048,611,1659,0.583015,0.247137
DS5,13228.0,DS5-798,Fly Ash,300,360,16.6667,,,180,45.03,0,0,0,,
DS6,23404.0,12,None,375,375,0.0,0.48,,180.00,39,1241,0,1241,0.0,0.302176
DS3,6070.0,DS3-1740,Fly Ash,300,400,25.0,,,180,,1075,688,1763,0.64,0.226886
DS3,6079.0,DS3-1749,Fly Ash,266.5,410.0,35.0,,,225,,1048,598,1646,0.570611,0.249089
DS3,6088.0,DS3-1758,Fly Ash,260,400,35.0,,,180,36.95,1101,668,1769,0.606721,0.226116
DS3,6097.0,DS3-1767,Fly Ash,266.5,410.0,35.0,,,225,31.44,1030,598,1628,0.580583,0.251843
DS3,6106.0,DS3-1776,Fly Ash,260,400,35.0,,,180,,1075,668,1743,0.621395,0.229489
DS3,6115.0,DS3-1785,Fly Ash,410,410,0.0,,,225,,1048,642,1690,0.612595,0.242604
DS6,23410.0,13,None,310,310,0.0,0.58,,179.80,24.7917,1240,0,1240,0.0,0.25
DS6,23419.0,13,Fly Ash,260,370,29.7297,0.43,,111.80,37.4623,1285,0,1285,0.0,0.287938
DS6,23424.0,13,None,355,355,0.0,0.51,,181.05,32.1367,1245,0,1245,0.0,0.285141
DS3,6130.0,DS3-1800,Fly Ash,307.5,410.0,25.0,,,225,,1048,628,1676,0.599237,0.24463
DS3,6139.0,DS3-1809,Fly Ash,410,410,0.0,,,225,31.44,1017,642,1659,0.631268,0.247137
DS3,6148.0,DS3-1818,Fly Ash,410,410,0.0,,,225,,1024,642,1666,0.626953,0.246098
DS3,6157.0,DS3-1827,Fly Ash,318,318,0.0,,,165,42.27,1145,739,1884,0.645415,0.16879
DS3,6166.0,DS3-1836,Fly Ash,420,420,0.0,,,181,,1100,705,1805,0.640909,0.232687
DS3,6175.0,DS3-1845,Fly Ash,420,420,0.0,,,181,,1100,705,1805,0.640909,0.232687
DS6,23428.0,13,Fly Ash,280,400,30.0,0.4,,112.0,43.145,1282,0,1282,0.0,0.312012
DS5,13233.0,DS5-803,Fly Ash,240,420,42.8571,,,190,32.49,0,0,0,,
DS3,6184.0,DS3-1854,Fly Ash,400,400,0.0,,,192,,1100,705,1805,0.640909,0.221607
DS3,6193.0,DS3-1863,Fly Ash,400,400,0.0,,,192,,1100,705,1805,0.640909,0.221607
DS3,6202.0,DS3-1872,Fly Ash,380,380,0.0,,,190,24.75,1100,705,1805,0.640909,0.210526
DS3,6211.0,DS3-1881,Fly Ash,380,380,0.0,,,190,,1100,705,1805,0.640909,0.210526
DS3,6220.0,DS3-1890,Fly Ash,430,430,0.0,,,185,28.9,1246,534,1780,0.428571,0.241573
DS3,6229.0,DS3-1899,Fly Ash,404,404,0.0,,,202,,917.7,671.2,1588.9,0.731394,0.254264
DS3,6238.0,DS3-1908,Silica Fume,454.5,500.0,9.1,,,126,71.15,597.1,551.2,1148.3,0.923128,0.435426
DS6,23446.0,16,Fly Ash,340,424,19.8113,0.45,,153.00,42.7,980,0,980,0.0,0.432653
DS5,13240.0,DS5-810,Fly Ash,300,420,28.5714,,,190,50.635,0,0,0,,
DS3,6248.0,DS3-1918,Fly Ash,500,500,0.0,,,180,50.41,1221.9,523.7,1745.6,0.428595,0.286434
DS3,6257.0,DS3-1927,Fly Ash,500,500,0.0,,,180,56.67,1187.3,509.2,1696.5,0.428872,0.294724
DS3,6266.0,DS3-1936,Silica Fume,454.5,500.0,9.1,,,126,,1286.1,551.2,1837.3,0.428583,0.272138
DS3,6275.0,DS3-1945,Silica Fume,454.5,500.0,9.1,,,126,,1198.7,514.1,1712.8,0.428881,0.29192
DS3,6284.0,DS3-1954,Fly Ash,500,500,0.0,,,180,,1221.9,523.7,1745.6,0.428595,0.286434
DS3,6293.0,DS3-1963,Fly Ash,500,500,0.0,,,180,,1132,485.5,1617.5,0.428887,0.309119
DS6,23454.0,16,None,295,295,0.0,0.65,,191.75,30.4,1039,0,1039,0.0,0.283927
DS6,23463.0,17,None,148,148,0.0,0.65,,96.20,23.6246,884,0,884,0.0,0.167421
DS3,6303.0,DS3-1973,Silica Fume,454.5,500.0,9.1,,,126,,1205.8,516.8,1722.6,0.428595,0.290259
DS3,6312.0,DS3-1982,Fly Ash,500,500,0.0,,,180,,1221.9,523.7,1745.6,0.428595,0.286434
DS3,6321.0,DS3-1991,Fly Ash,500,500,0.0,,,180,,1138.9,488.5,1627.4,0.428923,0.307239
[...]
DS5,12624.0,DS5-194,None,370,370,0.0,,,168,49.772,0,0,0,,
DS5,12625.0,DS5-195,None,315,315,0.0,,,168,36.145,0,0,0,,
DS5,12626.0,DS5-196,None,275,275,0.0,,,168,33.58,0,0,0,,
DS5,12627.0,DS5-197,GGBS,280,373,24.933,,,168,47.656,0,0,0,,
DS5,12628.0,DS5-198,GGBS,240,320,25.0,,,168,36.432,0,0,0,,
DS5,12629.0,DS5-199,GGBS,210,280,25.0,,,168,32.568,0,0,0,,
DS5,12630.0,DS5-200,GGBS,185,370,50.0,,,168,43.516,0,0,0,,
DS5,12631.0,DS5-201,GGBS,160,320,50.0,,,168,34.96,0,0,0,,
DS5,12632.0,DS5-202,GGBS,140,280,50.0,,,168,27.784,0,0,0,,
DS5,12633.0,DS5-203,GGBS,280,373,24.933,,,168,45.08,0,0,0,,
DS5,12634.0,DS5-204,GGBS,240,320,25.0,,,168,35.144,0,0,0,,
DS5,12635.0,DS5-205,GGBS,210,280,25.0,,,168,27.784,0,0,0,,
DS5,12636.0,DS5-206,GGBS,185,370,50.0,,,168,36.432,0,0,0,,
DS5,12637.0,DS5-207,GGBS,160,320,50.0,,,168,28.796,0,0,0,,
DS5,12638.0,DS5-208,GGBS,140,280,50.0,,,168,23.184,0,0,0,,
DS5,12639.0,DS5-209,GGBS,280,373,24.933,,,168,40.204,0,0,0,,
DS5,12640.0,DS5-210,GGBS,240,320,25.0,,,168,32.016,0,0,0,,
DS5,12641.0,DS5-211,GGBS,210,280,25.0,,,168,24.288,0,0,0,,
DS5,12642.0,DS5-212,GGBS,185,370,50.0,,,168,31.74,0,0,0,,
DS5,12643.0,DS5-213,GGBS,160,320,50.0,,,168,23.368,0,0,0,,
DS5,12644.0,DS5-214,GGBS,140,280,50.0,,,168,19.872,0,0,0,,
DS5,12645.0,DS5-215,GGBS,280,373,24.933,,,168,43.332,0,0,0,,
DS5,12646.0,DS5-216,GGBS,240,320,25.0,,,168,34.132,0,0,0,,
DS5,12647.0,DS5-217,GGBS,210,280,25.0,,,168,29.808,0,0,0,,
DS5,12648.0,DS5-218,GGBS,185,370,50.0,,,168,35.788,0,0,0,,
DS5,12649.0,DS5-219,GGBS,160,320,50.0,,,168,29.532,0,0,0,,
DS5,12650.0,DS5-220,GGBS,140,280,50.0,,,168,21.804,0,0,0,,
DS5,12651.0,DS5-221,None,335,335,0.0,,,168,42.78,0,0,0,,
DS5,12652.0,DS5-222,None,280,280,0.0,,,168,31.587,0,0,0,,
DS5,12653.0,DS5-223,None,240,240,0.0,,,168,27.048,0,0,0,,
DS5,12654.0,DS5-224,None,370,370,0.0,,,168,49.68,0,0,0,,
DS5,12655.0,DS5-225,None,315,315,0.0,,,168,39.529,0,0,0,,
DS5,12656.0,DS5-226,None,275,275,0.0,,,168,30.636,0,0,0,,
DS5,12657.0,DS5-227,GGBS,280,373,24.933,,,168,52.072,0,0,0,,
DS5,12658.0,DS5-228,GGBS,240,320,25.0,,,168,41.124,0,0,0,,
DS5,12659.0,DS5-229,GGBS,210,280,25.0,,,168,31.74,0,0,0,,
DS5,12660.0,DS5-230,GGBS,280,373,24.933,,,168,51.796,0,0,0,,
DS5,12661.0,DS5-231,GGBS,240,320,25.0,,,168,41.799,0,0,0,,
DS5,12662.0,DS5-232,GGBS,210,280,25.0,,,168,34.868,0,0,0,,
DS5,12663.0,DS5-233,GGBS,185,370,50.0,,,168,51.152,0,0,0,,
DS5,12664.0,DS5-234,GGBS,160,320,50.0,,,168,46.521,0,0,0,,
DS5,12665.0,DS5-235,GGBS,140,280,50.0,,,168,34.868,0,0,0,,
DS5,12666.0,DS5-236,GGBS,120,360,66.6667,,,168,46.644,0,0,0,,
DS5,12667.0,DS5-237,GGBS,105,315,66.6667,,,168,39.805,0,0,0,,
DS5,12668.0,DS5-238,GGBS,90,270,66.6667,,,168,34.316,0,0,0,,
DS5,12669.0,DS5-239,GGBS,280,373,24.933,,,168,60.168,0,0,0,,
DS5,12670.0,DS5-240,GGBS,240,320,25.0,,,168,48.791,0,0,0,,
DS5,12671.0,DS5-241,GGBS,210,280,25.0,,,168,39.652,0,0,0,,
DS5,12672.0,DS5-242,GGBS,280,373,24.933,,,168,53.82,0,0,0,,
DS5,12673.0,DS5-243,GGBS,240,320,25.0,,,168,36.34,0,0,0,,
DS5,12674.0,DS5-244,GGBS,210,280,25.0,,,168,31.065,0,0,0,,
DS5,12675.0,DS5-245,GGBS,280,373,24.933,,,168,50.784,0,0,0,,
DS5,12676.0,DS5-246,GGBS,240,320,25.0,,,168,42.535,0,0,0,,
DS5,12677.0,DS5-247,GGBS,210,280,25.0,,,168,37.26,0,0,0,,
DS5,12678.0,DS5-248,GGBS,280,373,24.933,,,168,56.151,0,0,0,,
DS5,12679.0,DS5-249,GGBS,240,320,25.0,,,168,47.687,0,0,0,,
DS5,12680.0,DS5-250,GGBS,210,280,25.0,,,168,38.701,0,0,0,,
DS5,12681.0,DS5-251,GGBS,280,373,24.933,,,168,55.936,0,0,0,,
DS5,12682.0,DS5-252,GGBS,240,320,25.0,,,168,39.775,0,0,0,,
DS5,12683.0,DS5-253,GGBS,210,280,25.0,,,168,33.672,0,0,0,,
DS5,12684.0,DS5-254,GGBS,280,373,24.933,,,168,58.972,0,0,0,,
DS5,12685.0,DS5-255,GGBS,240,320,25.0,,,168,42.228,0,0,0,,
DS5,12686.0,DS5-256,GGBS,210,280,25.0,,,168,38.732,0,0,0,,
DS5,12687.0,DS5-257,None,335,335,0.0,,,168,53.636,0,0,0,,
DS5,12688.0,DS5-258,None,280,280,0.0,,,168,44.252,0,0,0,,
DS5,12690.0,DS5-260,None,370,370,0.0,,,168,57.285,0,0,0,,
DS5,12691.0,DS5-261,None,315,315,0.0,,,168,49.588,0,0,0,,
DS5,12692.0,DS5-262,None,275,275,0.0,,,168,40.756,0,0,0,,
DS5,12693.0,DS5-263,GGBS,280,373,24.933,,,168,60.444,0,0,0,,
DS5,12694.0,DS5-264,GGBS,240,320,25.0,,,168,50.753,0,0,0,,
DS5,12695.0,DS5-265,GGBS,210,280,25.0,,,168,42.872,0,0,0,,
DS5,12696.0,DS5-266,None,335,335,0.0,,,168,45.908,0,0,0,,
DS5,12697.0,DS5-267,None,280,280,0.0,,,168,34.316,0,0,0,,
DS5,12698.0,DS5-268,None,240,240,0.0,,,168,26.312,0,0,0,,
DS5,12699.0,DS5-269,GGBS,280,373,24.933,,,168,54.648,0,0,0,,
DS5,12700.0,DS5-270,GGBS,240,320,25.0,,,168,44.375,0,0,0,,
DS5,12701.0,DS5-271,GGBS,210,280,25.0,,,168,36.34,0,0,0,,
DS5,12702.0,DS5-272,GGBS,185,370,50.0,,,168,52.624,0,0,0,,
DS5,12734.0,DS5-304,GGBS,210,280,25.0,,,168,38.272,0,0,0,,
DS5,12735.0,DS5-305,None,335,335,0.0,,,168,46.828,0,0,0,,
DS5,12736.0,DS5-306,None,280,280,0.0,,,168,37.72,0,0,0,,
DS5,12737.0,DS5-307,None,240,240,0.0,,,168,27.6,0,0,0,,
DS5,12738.0,DS5-308,None,370,370,0.0,,,168,48.944,0,0,0,,
DS5,12739.0,DS5-309,None,315,315,0.0,,,168,40.94,0,0,0,,
DS5,12740.0,DS5-310,None,275,275,0.0,,,168,33.028,0,0,0,,
DS5,12741.0,DS5-311,GGBS,280,373,24.933,,,168,55.844,0,0,0,,
DS5,12742.0,DS5-312,GGBS,240,320,25.0,,,168,42.412,0,0,0,,
DS5,12743.0,DS5-313,GGBS,210,280,25.0,,,168,37.996,0,0,0,,
DS5,12744.0,DS5-314,None,335,335,0.0,,,168,42.412,0,0,0,,
DS5,12745.0,DS5-315,None,280,280,0.0,,,168,36.003,0,0,0,,
DS5,12746.0,DS5-316,None,240,240,0.0,,,168,26.128,0,0,0,,
DS5,12747.0,DS5-317,GGBS,280,373,24.933,,,168,49.312,0,0,0,,
DS5,12748.0,DS5-318,GGBS,240,320,25.0,,,168,40.603,0,0,0,,
DS5,12749.0,DS5-319,GGBS,210,280,25.0,,,168,32.476,0,0,0,,
DS5,12750.0,DS5-320,GGBS,147,367,59.9455,,,168,44.068,0,0,0,,
DS5,12751.0,DS5-321,GGBS,127,317,59.9369,,,168,29.808,0,0,0,,
DS5,12752.0,DS5-322,GGBS,110,275,60.0,,,168,29.164,0,0,0,,
DS5,12753.0,DS5-323,GGBS,280,373,24.933,,,168,46.92,0,0,0,,
DS5,12754.0,DS5-324,GGBS,240,320,25.0,,,168,41.063,0,0,0,,
DS5,12755.0,DS5-325,GGBS,210,280,25.0,,,168,33.764,0,0,0,,
DS5,12756.0,DS5-326,None,240,240,0.0,,,180,26.225,0,0,0,,
DS5,12757.0,DS5-327,Fly Ash,210,280,25.0,,,180,23.076,0,0,0,,
DS5,12758.0,DS5-328,Fly Ash,210,315,33.3333,,,180,25.029,0,0,0,,
DS5,12759.0,DS5-329,Fly Ash,180,300,40.0,,,180,21.888,0,0,0,,
DS5,12760.0,DS5-330,Fly Ash,210,280,25.0,,,165,29.168,0,0,0,,
DS5,12761.0,DS5-331,Fly Ash,210,280,25.0,,,150,33.362,0,0,0,,
DS5,12762.0,DS5-332,Fly Ash,210,315,33.3333,,,165,29.782,0,0,0,,
DS5,12763.0,DS5-333,Fly Ash,210,315,33.3333,,,150,36.879,0,0,0,,
DS5,12764.0,DS5-334,Fly Ash,180,300,40.0,,,165,26.2,0,0,0,,
DS5,12765.0,DS5-335,Fly Ash,180,300,40.0,,,150,31.851,0,0,0,,
DS5,12766.0,DS5-336,Fly Ash,180,270,33.3333,,,165,25.222,0,0,0,,
DS5,12767.0,DS5-337,Fly Ash,180,240,25.0,,,150,25.763,0,0,0,,
DS5,12768.0,DS5-338,None,280,280,0.0,,,168,33.249,0,0,0,,
DS5,12769.0,DS5-339,Fly Ash,240,320,25.0,,,165,31.267,0,0,0,,
DS5,12770.0,DS5-340,Fly Ash,240,360,33.3333,,,165,37.91,0,0,0,,
DS5,12771.0,DS5-341,Fly Ash,210,350,40.0,,,165,29.341,0,0,0,,
DS5,12772.0,DS5-342,None,320,320,0.0,,,160,47.71,0,0,0,,
DS5,12773.0,DS5-343,Fly Ash,240,320,25.0,,,150,38.54,0,0,0,,
DS5,12774.0,DS5-344,Fly Ash,240,360,33.3333,,,150,42.706,0,0,0,,
DS5,12775.0,DS5-345,Fly Ash,240,400,40.0,,,150,40.962,0,0,0,,
DS5,12776.0,DS5-346,Fly Ash,192,240,20.0,,,180,21.205,0,0,0,,
DS5,12777.0,DS5-347,Fly Ash,210,280,25.0,,,165,28.287,0,0,0,,
DS5,12778.0,DS5-348,Fly Ash,180,270,33.3333,,,165,27.22,0,0,0,,
DS5,12779.0,DS5-349,Fly Ash,224,280,20.0,,,165,30.818,0,0,0,,
DS5,12780.0,DS5-350,Fly Ash,256,320,20.0,,,160,41.315,0,0,0,,
DS5,12781.0,DS5-351,None,240,240,0.0,,,180,23.48,0,0,0,,
DS5,12782.0,DS5-352,Fly Ash,210,280,25.0,,,165,25.876,0,0,0,,
DS5,12783.0,DS5-353,Fly Ash,210,280,25.0,,,150,29.991,0,0,0,,
DS5,12784.0,DS5-354,Fly Ash,210,315,33.3333,,,165,27.373,0,0,0,,
DS5,12785.0,DS5-355,Fly Ash,210,315,33.3333,,,150,33.687,0,0,0,,
DS5,12786.0,DS5-356,Fly Ash,180,300,40.0,,,165,21.999,0,0,0,,
DS5,12787.0,DS5-357,Fly Ash,180,300,40.0,,,150,29.244,0,0,0,,
DS5,12788.0,DS5-358,None,280,280,0.0,,,168,35.381,0,0,0,,
DS5,12789.0,DS5-359,Fly Ash,240,320,25.0,,,165,31.274,0,0,0,,
DS5,12790.0,DS5-360,Fly Ash,240,360,33.3333,,,165,32.653,0,0,0,,
DS5,12791.0,DS5-361,Fly Ash,240,380,36.8421,,,165,36.933,0,0,0,,
DS5,12792.0,DS5-362,None,320,320,0.0,,,160,40.154,0,0,0,,
DS5,12793.0,DS5-363,Fly Ash,240,320,25.0,,,150,38.824,0,0,0,,
DS5,12794.0,DS5-364,Fly Ash,240,360,33.3333,,,150,38.731,0,0,0,,
DS5,12795.0,DS5-365,None,320,320,0.0,,,160,54.556,0,0,0,,
DS5,12796.0,DS5-366,None,280,280,0.0,,,168,43.157,0,0,0,,
DS5,12797.0,DS5-367,GGBS,160,320,50.0,,,160,46.184,0,0,0,,
DS5,12829.0,DS5-399,GGBS,160,320,50.0,,,136,55.913,0,0,0,,
DS5,12830.0,DS5-400,GGBS,150,300,50.0,,,140,51.785,0,0,0,,
DS5,12831.0,DS5-401,GGBS,140,280,50.0,,,143,41.23,0,0,0,,
DS5,12832.0,DS5-402,GGBS,246,320,23.125,,,149,54.88,0,0,0,,
DS5,12833.0,DS5-403,GGBS,231,300,23.0,,,154,49.641,0,0,0,,
DS5,12834.0,DS5-404,GGBS,215,280,23.2143,,,156,44.697,0,0,0,,
DS5,12835.0,DS5-405,GGBS,160,320,50.0,,,152,50.41,0,0,0,,
DS5,12836.0,DS5-406,GGBS,150,300,50.0,,,157,42.608,0,0,0,,
DS5,12837.0,DS5-407,GGBS,140,280,50.0,,,160,36.515,0,0,0,,
DS5,12838.0,DS5-408,GGBS,246,320,23.125,,,156,54.27,0,0,0,,
DS5,12839.0,DS5-409,GGBS,231,300,23.0,,,161,48.423,0,0,0,,
DS5,12840.0,DS5-410,GGBS,215,280,23.2143,,,164,41.378,0,0,0,,
DS5,12841.0,DS5-411,GGBS,160,320,50.0,,,152,54.422,0,0,0,,
DS5,12842.0,DS5-412,GGBS,150,300,50.0,,,157,47.94,0,0,0,,
DS5,12843.0,DS5-413,GGBS,140,280,50.0,,,160,43.327,0,0,0,,
DS5,12844.0,DS5-414,GGBS,246,320,23.125,,,156,56.641,0,0,0,,
DS5,12845.0,DS5-415,GGBS,231,300,23.0,,,161,47.738,0,0,0,,
DS5,12846.0,DS5-416,GGBS,215,280,23.2143,,,164,41.955,0,0,0,,
DS5,12847.0,DS5-417,GGBS,160,320,50.0,,,136,62.56,0,0,0,,
DS5,12848.0,DS5-418,GGBS,150,300,50.0,,,140,53.084,0,0,0,,
DS5,12849.0,DS5-419,GGBS,140,280,50.0,,,143,48.944,0,0,0,,
DS5,12850.0,DS5-420,GGBS,246,320,23.125,,,149,58.42,0,0,0,,
DS5,12851.0,DS5-421,GGBS,231,300,23.0,,,154,53.544,0,0,0,,
DS5,12852.0,DS5-422,GGBS,215,280,23.2143,,,156,47.932,0,0,0,,
DS5,12853.0,DS5-423,GGBS,160,320,50.0,,,152,58.604,0,0,0,,
DS5,12854.0,DS5-424,GGBS,150,300,50.0,,,157,51.152,0,0,0,,
DS5,12855.0,DS5-425,GGBS,140,280,50.0,,,160,42.872,0,0,0,,
DS5,12856.0,DS5-426,GGBS,246,320,23.125,,,156,60.996,0,0,0,,
DS5,12857.0,DS5-427,GGBS,231,300,23.0,,,161,55.476,0,0,0,,
DS5,12858.0,DS5-428,GGBS,215,280,23.2143,,,164,49.22,0,0,0,,
DS5,12859.0,DS5-429,None,320,320,0.0,,,160,56.856,0,0,0,,
DS5,12860.0,DS5-430,None,300,300,0.0,,,165,49.128,0,0,0,,
DS5,12861.0,DS5-431,None,280,280,0.0,,,168,43.884,0,0,0,,
DS5,12862.0,DS5-432,GGBS,160,320,50.0,,,152,60.996,0,0,0,,
DS5,12863.0,DS5-433,GGBS,150,300,50.0,,,157,49.312,0,0,0,,
DS5,12864.0,DS5-434,GGBS,140,280,50.0,,,160,44.804,0,0,0,,
DS5,12865.0,DS5-435,GGBS,246,320,23.125,,,156,62.744,0,0,0,,
DS5,12866.0,DS5-436,GGBS,231,300,23.0,,,161,55.568,0,0,0,,
DS5,12867.0,DS5-437,GGBS,215,280,23.2143,,,164,47.472,0,0,0,,
DS5,12868.0,DS5-438,GGBS,160,320,50.0,,,136,61.456,0,0,0,,
DS5,12869.0,DS5-439,GGBS,150,300,50.0,,,140,54.832,0,0,0,,
DS5,12870.0,DS5-440,GGBS,140,280,50.0,,,143,44.436,0,0,0,,
DS5,12871.0,DS5-441,GGBS,246,320,23.125,,,149,63.48,0,0,0,,
DS5,12872.0,DS5-442,GGBS,231,300,23.0,,,154,52.624,0,0,0,,
DS5,12873.0,DS5-443,GGBS,215,280,23.2143,,,156,46.828,0,0,0,,
DS5,12874.0,DS5-444,GGBS,160,320,50.0,,,152,52.532,0,0,0,,
DS5,12875.0,DS5-445,GGBS,150,300,50.0,,,157,43.976,0,0,0,,
DS5,12876.0,DS5-446,GGBS,140,280,50.0,,,160,37.996,0,0,0,,
DS5,12877.0,DS5-447,GGBS,246,320,23.125,,,156,59.34,0,0,0,,
DS5,12878.0,DS5-448,GGBS,231,300,23.0,,,161,48.668,0,0,0,,
DS5,12879.0,DS5-449,GGBS,215,280,23.2143,,,164,41.492,0,0,0,,
DS5,12880.0,DS5-450,GGBS,160,320,50.0,,,152,56.212,0,0,0,,
DS5,12881.0,DS5-451,GGBS,150,300,50.0,,,157,49.036,0,0,0,,
DS5,12882.0,DS5-452,GGBS,140,280,50.0,,,160,41.124,0,0,0,,
DS5,12883.0,DS5-453,GGBS,246,320,23.125,,,156,56.12,0,0,0,,
DS5,12884.0,DS5-454,GGBS,231,300,23.0,,,161,56.948,0,0,0,,
DS5,12885.0,DS5-455,GGBS,215,280,23.2143,,,164,43.24,0,0,0,,
DS5,12886.0,DS5-456,GGBS,160,320,50.0,,,136,66.24,0,0,0,,
DS5,12887.0,DS5-457,GGBS,150,300,50.0,,,140,50.876,0,0,0,,
DS5,12888.0,DS5-458,GGBS,140,280,50.0,,,143,47.932,0,0,0,,
DS5,12889.0,DS5-459,GGBS,246,320,23.125,,,149,64.492,0,0,0,,
DS5,12890.0,DS5-460,GGBS,231,300,23.0,,,154,53.084,0,0,0,,
DS5,12891.0,DS5-461,GGBS,215,280,23.2143,,,156,48.392,0,0,0,,
DS5,12892.0,DS5-462,GGBS,160,320,50.0,,,152,57.684,0,0,0,,
DS5,12893.0,DS5-463,GGBS,150,300,50.0,,,157,50.876,0,0,0,,
DS5,12894.0,DS5-464,GGBS,140,280,50.0,,,160,44.344,0,0,0,,
DS5,12895.0,DS5-465,GGBS,246,320,23.125,,,156,59.064,0,0,0,,
DS5,12896.0,DS5-466,GGBS,231,300,23.0,,,161,54.004,0,0,0,,
DS5,12897.0,DS5-467,GGBS,215,280,23.2143,,,164,49.22,0,0,0,,
DS5,12898.0,DS5-468,None,320,320,0.0,,,160,58.42,0,0,0,,
DS5,12899.0,DS5-469,None,300,300,0.0,,,165,48.852,0,0,0,,
DS5,12900.0,DS5-470,None,280,280,0.0,,,168,46.184,0,0,0,,
DS5,12901.0,DS5-471,None,320,320,0.0,,,160,49.448,0,0,0,,
DS5,12902.0,DS5-472,None,300,300,0.0,,,165,45.123,0,0,0,,
DS5,12903.0,DS5-473,None,280,280,0.0,,,168,38.859,0,0,0,,
DS5,12904.0,DS5-474,None,320,320,0.0,,,160,56.999,0,0,0,,
DS5,12905.0,DS5-475,None,300,300,0.0,,,165,51.043,0,0,0,,
DS5,12906.0,DS5-476,None,280,280,0.0,,,168,44.628,0,0,0,,
DS5,12907.0,DS5-477,None,356,356,0.0,,,179,46,0,0,0,,
DS5,12908.0,DS5-478,None,298,298,0.0,,,179,36.156,0,0,0,,
DS5,12909.0,DS5-479,None,256,256,0.0,,,180,30.176,0,0,0,,
DS5,12910.0,DS5-480,Fly Ash,246,411,40.146,,,181,34.868,0,0,0,,
DS5,12911.0,DS5-481,Fly Ash,206,343,39.9417,,,180,27.324,0,0,0,,
DS5,12912.0,DS5-482,Fly Ash,177,295,40.0,,,181,19.872,0,0,0,,
DS5,12913.0,DS5-483,Fly Ash,237,395,40.0,,,150,47.196,0,0,0,,
DS5,12914.0,DS5-484,None,360,360,0.0,,,180,49.772,0,0,0,,
DS5,12915.0,DS5-485,None,300,300,0.0,,,180,34.316,0,0,0,,
DS5,12916.0,DS5-486,None,257,257,0.0,,,180,26.588,0,0,0,,
DS5,12917.0,DS5-487,Fly Ash,194,431,54.9884,,,180,25.208,0,0,0,,
DS5,12918.0,DS5-488,Fly Ash,162,360,55.0,,,180,17.296,0,0,0,,
DS5,12919.0,DS5-489,Fly Ash,139,308,54.8701,,,180,16.284,0,0,0,,
DS5,12920.0,DS5-490,Fly Ash,181,402,54.9751,,,167,26.312,0,0,0,,
DS5,12921.0,DS5-491,None,340,340,0.0,,,170,40.02,0,0,0,,
DS5,12922.0,DS5-492,None,320,320,0.0,,,192,26.312,0,0,0,,
DS5,12923.0,DS5-493,None,290,290,0.0,,,217.5,16.1,0,0,0,,
DS5,12924.0,DS5-494,Natural Pozzolan,255,340,25.0,,,170,37.904,0,0,0,,
DS5,12925.0,DS5-495,Natural Pozzolan,240,320,25.0,,,192,30.084,0,0,0,,
DS5,12926.0,DS5-496,Natural Pozzolan,217.5,290.0,25.0,,,217.5,16.376,0,0,0,,
DS5,12927.0,DS5-497,Natural Pozzolan,255,340,25.0,,,170,39.376,0,0,0,,
DS5,12928.0,DS5-498,Natural Pozzolan,240,320,25.0,,,192,28.612,0,0,0,,
DS5,12929.0,DS5-499,Natural Pozzolan,217.5,290.0,25.0,,,217.5,17.572,0,0,0,,
DS5,12993.0,DS5-563,None,246,246,0.0,,,175,23.644,0,0,0,,
DS5,12994.0,DS5-564,None,284,284,0.0,,,170,29.348,0,0,0,,
DS5,12995.0,DS5-565,None,240,240,0.0,,,180,21.896,0,0,0,,
DS5,12996.0,DS5-566,None,241,241,0.0,,,180.75,29.348,0,0,0,,
DS5,12997.0,DS5-567,None,276,276,0.0,,,165.6,27.784,0,0,0,,
DS5,12998.0,DS5-568,None,244,244,0.0,,,183,39.56,0,0,0,,
DS5,12999.0,DS5-569,None,280,280,0.0,,,168,38.64,0,0,0,,
DS5,13000.0,DS5-570,None,241,241,0.0,,,180.75,26.956,0,0,0,,
DS5,13001.0,DS5-571,None,242,242,0.0,,,181.5,22.448,0,0,0,,
DS5,13002.0,DS5-572,None,240,240,0.0,,,180,26.864,0,0,0,,
DS5,13003.0,DS5-573,None,240,240,0.0,,,180,24.932,0,0,0,,
DS5,13004.0,DS5-574,None,242,242,0.0,,,181.5,27.508,0,0,0,,
DS5,13005.0,DS5-575,None,242,242,0.0,,,181.5,23.644,0,0,0,,
DS5,13006.0,DS5-576,None,238,238,0.0,,,178.5,24.564,0,0,0,,
DS5,13007.0,DS5-577,None,238,238,0.0,,,178.5,25.392,0,0,0,,
DS5,13008.0,DS5-578,None,240,240,0.0,,,180,31.832,0,0,0,,
DS5,13009.0,DS5-579,None,238,238,0.0,,,178.5,26.956,0,0,0,,
DS5,13010.0,DS5-580,None,244,244,0.0,,,183,28.796,0,0,0,,
DS5,13011.0,DS5-581,None,238,238,0.0,,,178.5,21.068,0,0,0,,
DS5,13012.0,DS5-582,None,241,241,0.0,,,180.75,28.704,0,0,0,,
DS5,13013.0,DS5-583,None,239,239,0.0,,,179.25,22.08,0,0,0,,
DS5,13014.0,DS5-584,None,239,239,0.0,,,179.25,30.176,0,0,0,,
DS5,13015.0,DS5-585,None,238,238,0.0,,,178.5,25.3,0,0,0,,
DS5,13016.0,DS5-586,None,238,238,0.0,,,178.5,22.54,0,0,0,,
DS5,13017.0,DS5-587,None,239,239,0.0,,,179.25,20.332,0,0,0,,
DS5,13018.0,DS5-588,None,238,238,0.0,,,178.5,26.588,0,0,0,,
DS5,13019.0,DS5-589,None,241,241,0.0,,,180.75,26.772,0,0,0,,
DS5,13020.0,DS5-590,None,240,240,0.0,,,180,26.735,0,0,0,,
DS5,13021.0,DS5-591,None,240,240,0.0,,,180,23.074,0,0,0,,
DS5,13022.0,DS5-592,None,238,238,0.0,,,178.5,23.184,0,0,0,,
DS5,13023.0,DS5-593,None,241,241,0.0,,,180.75,23,0,0,0,,
DS5,13024.0,DS5-594,None,240,240,0.0,,,180,25.024,0,0,0,,
DS5,13025.0,DS5-595,None,241,241,0.0,,,180.75,18.768,0,0,0,,
DS5,13026.0,DS5-596,None,242,242,0.0,,,181.5,29.532,0,0,0,,
DS5,13027.0,DS5-597,None,238,238,0.0,,,178.5,24.932,0,0,0,,
DS5,13028.0,DS5-598,None,243,243,0.0,,,182.25,25.668,0,0,0,,
DS5,13029.0,DS5-599,None,242,242,0.0,,,181.5,23.368,0,0,0,,
DS5,13030.0,DS5-600,None,240,240,0.0,,,180,26.22,0,0,0,,
DS5,13031.0,DS5-601,None,239,239,0.0,,,179.25,22.724,0,0,0,,
DS5,13032.0,DS5-602,None,300,300,0.0,,,162,36.156,0,0,0,,
DS5,13033.0,DS5-603,Fly Ash,240,300,20.0,,,162,33.488,0,0,0,,
DS5,13034.0,DS5-604,None,300,300,0.0,,,160,50.048,0,0,0,,
DS5,13035.0,DS5-605,Fly Ash,240,300,20.0,,,160,45.08,0,0,0,,
DS5,13036.0,DS5-606,None,380,380,0.0,,,125,58.144,0,0,0,,
DS5,13037.0,DS5-607,None,266,380,30.0,,,125,68.172,0,0,0,,
DS5,13038.0,DS5-608,None,245,350,30.0,,,133,54.556,0,0,0,,
DS5,13039.0,DS5-609,None,294,420,30.0,,,155.8,64.216,0,0,0,,
DS5,13040.0,DS5-610,None,300,300,0.0,,,150,56.304,0,0,0,,
DS5,13041.0,DS5-611,Fly Ash,240,300,20.0,,,150,47.564,0,0,0,,
DS5,13042.0,DS5-612,None,300,300,0.0,,,150,56.856,0,0,0,,
DS5,13043.0,DS5-613,Fly Ash,240,300,20.0,,,150,50.416,0,0,0,,
DS5,13044.0,DS5-614,None,360,360,0.0,,,180,44.068,0,0,0,,
DS5,13045.0,DS5-615,None,300,300,0.0,,,180,37.352,0,0,0,,
DS5,13046.0,DS5-616,None,240,240,0.0,,,180,26.036,0,0,0,,
DS5,13047.0,DS5-617,Natural Pozzolan,320,400,20.0,,,180,44.896,0,0,0,,
DS5,13048.0,DS5-618,Natural Pozzolan,270,337.5,20.0,,,180,33.81,0,0,0,,
DS5,13049.0,DS5-619,Natural Pozzolan,240,300,20.0,,,180,30.36,0,0,0,,
DS5,13050.0,DS5-620,None,360,360,0.0,,,180,43.424,0,0,0,,
DS5,13051.0,DS5-621,None,300,300,0.0,,,180,33.12,0,0,0,,
DS5,13052.0,DS5-622,None,240,240,0.0,,,180,23.552,0,0,0,,
DS5,13053.0,DS5-623,Natural Pozzolan,320,400,20.0,,,180,43.7,0,0,0,,
DS5,13054.0,DS5-624,Natural Pozzolan,270,337.5,20.0,,,180,32.292,0,0,0,,
DS5,13055.0,DS5-625,Natural Pozzolan,240,300,20.0,,,180,29.44,0,0,0,,
DS5,13056.0,DS5-626,None,360,360,0.0,,,180,42.872,0,0,0,,
DS5,13057.0,DS5-627,None,300,300,0.0,,,180,33.948,0,0,0,,
DS5,13058.0,DS5-628,None,240,240,0.0,,,180,21.804,0,0,0,,
DS5,13059.0,DS5-629,Natural Pozzolan,320,400,20.0,,,180,40.204,0,0,0,,
DS5,13060.0,DS5-630,Natural Pozzolan,270,337.5,20.0,,,180,30.59,0,0,0,,
DS5,13061.0,DS5-631,Natural Pozzolan,240,300,20.0,,,180,22.724,0,0,0,,
DS5,13063.0,DS5-633,Fly Ash,240,300,20.0,,,150,46.92,0,0,0,,
DS5,13064.0,DS5-634,Fly Ash,215,380,43.4211,,,160,34.316,0,0,0,,
DS5,13065.0,DS5-635,Fly Ash,240,380,36.8421,,,160,33.856,0,0,0,,
DS5,13066.0,DS5-636,None,320,320,0.0,,,160,54.436,0,0,0,,
DS5,13067.0,DS5-637,None,320,320,0.0,,,160,58.954,0,0,0,,
DS5,13068.0,DS5-638,None,320,320,0.0,,,160,53.618,0,0,0,,
DS5,13069.0,DS5-639,None,320,320,0.0,,,160,52.1,0,0,0,,
DS5,13070.0,DS5-640,None,320,320,0.0,,,160,51.713,0,0,0,,
DS5,13071.0,DS5-641,None,320,320,0.0,,,160,46.819,0,0,0,,
DS5,13072.0,DS5-642,None,320,320,0.0,,,160,55.844,0,0,0,,
DS5,13073.0,DS5-643,None,300,300,0.0,,,165,46.644,0,0,0,,
DS5,13074.0,DS5-644,None,280,280,0.0,,,168,43.24,0,0,0,,
DS5,13075.0,DS5-645,None,320,320,0.0,,,160,59.524,0,0,0,,
DS5,13076.0,DS5-646,None,300,300,0.0,,,165,49.312,0,0,0,,
DS5,13077.0,DS5-647,None,280,280,0.0,,,168,43.148,0,0,0,,
DS5,13078.0,DS5-648,GGBS,160,320,50.0,,,152,58.052,0,0,0,,
DS5,13079.0,DS5-649,GGBS,150,300,50.0,,,157,48.208,0,0,0,,
DS5,13080.0,DS5-650,GGBS,140,280,50.0,,,160,44.988,0,0,0,,
DS5,13081.0,DS5-651,GGBS,246,320,23.125,,,156,58.052,0,0,0,,
DS5,13082.0,DS5-652,GGBS,231,300,23.0,,,161,52.256,0,0,0,,